{
  "resourceType": "Bundle",
  "id": "jp-eCheckup-BundleSS",
  "meta": {
    "profile": [
      "https://igs.healthdataworks.net/jp-eCheckup/StructureDefinition-jp-eCheckup-Bundle.html"
    ],
    "versionId": "34",
    "lastUpdated": "2021-07-01T09:40:27.669+00:00",
    "source": "#Jp45mUcnEIe84YT4"
  },
  "type": "document",
  "timestamp": "2020-10-21T12:12:21.123+00:00",
  "entry": [
    {
      "fullUrl": "urn:uuid:fd13ba04-3b58-ac07-fad6-464cec87691d",
      "resource": {
        "resourceType": "Composition",
        "id": "Inline-Instance-for-jp-eCheckup-BundleSS-1",
        "meta": {
          "profile": [
            "https://igs.healthdataworks.net/jp-eCheckup/StructureDefinition-jp-eCheckup-Composition.html"
          ]
        },
        "type": {
          "coding": [
            {
              "system": "http://jpfhir.jp/fhir/eCheckup/CodeSystem/documentType",
              "code": "01",
              "display": "健康診断結果報告書"
            }
          ]
        },
        "category": [
          {
            "coding": [
              {
                "system": "urn:oid:2.16.840.1.113883.2.2.1.6.1001",
                "version": "1",
                "code": "10",
                "display": "特定健診"
              }
            ]
          }
        ],
        "event": [
          {
            "code": [
              {
                "coding": [
                  {
                    "system": "urn:oid:2.16.840.1.113883.2.2.1.6.1002",
                    "code": "010",
                    "display": "特定健診"
                  }
                ]
              }
            ],
            "period": {
              "start": "2020-10-01",
              "end": "2020-10-01"
            },
            "detail": [
              {
                "reference": "urn:uuid:3af3232e-1579-d4f6-3578-aa1e799fdcad"
              }
            ]
          }
        ],
        "section": [
          {
            "title": "健診セクション",
            "code": {
              "coding": [
                {
                  "system": "urn:oid:2.16.840.1.113883.2.2.1.6.1010",
                  "code": "01910",
                  "display": "健診セクション"
                }
              ]
            },
            "text": {
              "status": "generated",
              "div": "<div xmlns=\"http://www.w3.org/1999/xhtml\"><ul><li>身長 162.3 cm</li><li>体重 65.5 kg</li><li>BMI 24.9 kg/m2</li><li>腹囲 70 cm</li><li>メタボリックシンドローム判定 非該当</li><li>保健指導レベル なし</li></ul></div>"
            },
            "entry": [
              {
                "reference": "urn:uuid:b41c8c97-f3ad-450a-1738-5f2b4c40c68a"
              },
              {
                "reference": "urn:uuid:cde1fec2-f8af-a793-7fe0-c2c417c9c000"
              },
              {
                "reference": "urn:uuid:51424f15-c213-00bf-5d31-4770244b4f32"
              },
              {
                "reference": "urn:uuid:628244db-68cf-abb6-bc9d-2d89bbc2b3ea"
              },
              {
                "reference": "urn:uuid:ff4472f4-9e44-6aa3-bcd6-abb0662e4641"
              },
              {
                "reference": "urn:uuid:38cbf2cf-61b7-6738-9d8c-a7b29016c48f"
              },
              {
                "reference": "urn:uuid:01b972fc-5183-8fa4-0954-10a7c5f5a36e"
              },
              {
                "reference": "urn:uuid:785fcd39-8c25-4e6d-53bc-a2f8055fd110"
              },
              {
                "reference": "urn:uuid:397dd498-07ed-49ce-3e43-2ee1c7db42aa"
              },
              {
                "reference": "urn:uuid:a2cefc2b-95d6-4108-dac5-bee1f991608a"
              },
              {
                "reference": "urn:uuid:d0d3fb12-eacc-c4a2-1762-130b4a65ead2"
              },
              {
                "reference": "urn:uuid:22479301-4726-e239-09d6-257429835c67"
              },
              {
                "reference": "urn:uuid:cbb7812a-8f5a-6547-c821-1dc2304d1066"
              },
              {
                "reference": "urn:uuid:13e56540-0e37-96f8-c774-31d66fb3efa8"
              },
              {
                "reference": "urn:uuid:881e7ffa-4b36-01de-f954-9eff7a7eba24"
              },
              {
                "reference": "urn:uuid:55cb9c64-af3d-9763-a3f5-8d14954c36cc"
              },
              {
                "reference": "urn:uuid:42b66f41-aafe-1452-1f3d-8fc25dfa1ce3"
              },
              {
                "reference": "urn:uuid:54eabf03-1de5-d080-aed6-6b6a2e4da269"
              },
              {
                "reference": "urn:uuid:38f45298-ea42-9f15-7fb2-48ed899d3ab6"
              },
              {
                "reference": "urn:uuid:eac6609a-9821-61f7-3eb9-b7db3d9f5cfc"
              }
            ]
          },
          {
            "title": "問診セクション",
            "code": {
              "coding": [
                {
                  "system": "urn:oid:2.16.840.1.113883.2.2.1.6.1010",
                  "code": "01920",
                  "display": "問診セクション"
                }
              ]
            },
            "text": {
              "status": "generated",
              "div": "<div xmlns=\"http://www.w3.org/1999/xhtml\"><p>問診結果</p></div>"
            },
            "entry": [
              {
                "reference": "urn:uuid:71fcdecc-1331-9067-f5b2-24d6ba5eecda"
              },
              {
                "reference": "urn:uuid:e6bd5094-2641-966f-92cf-04aced8624ac"
              },
              {
                "reference": "urn:uuid:84dbe428-621d-90a2-6d8a-93bf7877a623"
              },
              {
                "reference": "urn:uuid:394254aa-ec8b-9460-b807-3f14af30f980"
              },
              {
                "reference": "urn:uuid:771633a6-53fe-93b7-a554-55eba705323a"
              },
              {
                "reference": "urn:uuid:7aba35bb-c544-a4f5-1708-80232eb4ad20"
              },
              {
                "reference": "urn:uuid:3f789a09-3ed8-7b10-0746-3468712a31e0"
              },
              {
                "reference": "urn:uuid:60c85205-13fb-407f-c318-ba6d77f6cbf5"
              },
              {
                "reference": "urn:uuid:cf70c7f5-61e0-08b2-b0bd-6c8de3f17d1e"
              },
              {
                "reference": "urn:uuid:03f32584-e817-3800-1a1b-0875aca196a6"
              },
              {
                "reference": "urn:uuid:653fb95b-8523-a180-7a42-4af7ecab60b8"
              },
              {
                "reference": "urn:uuid:55f1f4c4-ba3a-908f-8bff-9055f97365a2"
              },
              {
                "reference": "urn:uuid:90801144-7e54-4746-e61d-59846d98099a"
              },
              {
                "reference": "urn:uuid:0e01b4a8-0c09-1b58-2806-e92de3772100"
              },
              {
                "reference": "urn:uuid:fa85159b-5e47-2328-0818-19157328ab2d"
              },
              {
                "reference": "urn:uuid:b2dd1122-47d5-1e4e-7032-522c3409f196"
              },
              {
                "reference": "urn:uuid:d23cab05-9bd9-e67d-0b24-067e094862f5"
              },
              {
                "reference": "urn:uuid:029b7c8b-a683-6189-4b28-69eac44785df"
              },
              {
                "reference": "urn:uuid:ddd1124f-f22d-73d9-0205-f23d19ff9d5b"
              },
              {
                "reference": "urn:uuid:58da6db5-8b94-885e-d69d-2c1d61bcf5fc"
              },
              {
                "reference": "urn:uuid:c129aa0a-0324-f741-b3b6-2ede35eef2de"
              },
              {
                "reference": "urn:uuid:4e41601f-3e85-2b45-51a9-8e939a43c9f7"
              },
              {
                "reference": "urn:uuid:08f49bc3-1cd1-b942-1723-4aa950b4c77d"
              },
              {
                "reference": "urn:uuid:d669559e-2e5a-c271-c1ff-cde1228d4077"
              },
              {
                "reference": "urn:uuid:3a33a26e-3532-06a6-90a9-e0566342cd49"
              }
            ]
          },
          {
            "title": "問診情報",
            "code": {
              "coding": [
                {
                  "system": "urn:oid:1.2.392.200119.6.1002",
                  "code": "01920"
                }
              ]
            }
          },
          {
            "title": "添付書類",
            "code": {
              "coding": [
                {
                  "system": "urn:oid:1.2.392.200119.6.1002",
                  "code": "01995"
                }
              ]
            }
          }
        ],
        "extension": [
          {
            "url": "http://hl7.org/fhir/StructureDefinition/composition-clinicaldocument-versionNumber",
            "valueString": "1.0"
          }
        ],
        "identifier": {
          "system": "http://jpfhir.jp/fhir/eCheckup/documentIdentifier",
          "value": "12345"
        },
        "language": "ja",
        "status": "final",
        "subject": {
          "reference": "urn:uuid:4bc68294-1895-d159-655b-1bc7e83f52f3"
        },
        "encounter": {
          "reference": "urn:uuid:3af3232e-1579-d4f6-3578-aa1e799fdcad"
        },
        "date": "2020-10-21T12:12:21+09:00",
        "author": [
          {
            "reference": "urn:uuid:e5ea153d-fd94-adcc-fb27-df24f394d3fa"
          }
        ],
        "title": "健康診断結果のお知らせ",
        "confidentiality": "N",
        "custodian": {
          "reference": "urn:uuid:d1fb6063-8f12-4c2c-922a-7b5e467c8407"
        }
      }
    },
    {
      "fullUrl": "urn:uuid:4bc68294-1895-d159-655b-1bc7e83f52f3",
      "resource": {
        "resourceType": "Patient",
        "id": "Inline-Instance-for-jp-eCheckup-BundleSS-2",
        "meta": {
          "profile": [
            "https://igs.healthdataworks.net/jp-eCheckup/StructureDefinition-jp-eCheckup-Patient.html"
          ]
        },
        "identifier": [
          {
            "system": "urn:oid:1.2.392.200119.6.102.11234567890",
            "value": "34567"
          }
        ],
        "name": [
          {
            "extension": [
              {
                "url": "http://hl7.org/fhir/StructureDefinition/iso21090-EN-representation",
                "valueCode": "IDE"
              }
            ],
            "use": "official",
            "family": "健診",
            "given": [
              "太郎"
            ]
          },
          {
            "extension": [
              {
                "url": "http://hl7.org/fhir/StructureDefinition/iso21090-EN-representation",
                "valueCode": "SYL"
              }
            ],
            "use": "official",
            "family": "ケンシン",
            "given": [
              "タロウ"
            ]
          }
        ],
        "telecom": [
          {
            "system": "phone",
            "value": "03-1111-2222",
            "use": "home"
          }
        ],
        "gender": "male",
        "birthDate": "1950-05-04",
        "address": [
          {
            "text": "神奈川県横浜市港区１－２－３",
            "postalCode": "123-4567",
            "country": "JP"
          }
        ]
      }
    },
    {
      "fullUrl": "urn:uuid:e5ea153d-fd94-adcc-fb27-df24f394d3fa",
      "resource": {
        "resourceType": "PractitionerRole",
        "id": "Inline-Instance-for-jp-eCheckup-BundleSS-3",
        "meta": {
          "profile": [
            "https://igs.healthdataworks.net/jp-eCheckup/StructureDefinition-jp-eCheckup-PractitionerRole.html"
          ]
        },
        "practitioner": {
          "reference": "urn:uuid:6c4ef273-df66-00ab-c021-d05c5a19e0ba"
        },
        "organization": {
          "reference": "urn:uuid:d1fb6063-8f12-4c2c-922a-7b5e467c8407"
        }
      }
    },
    {
      "fullUrl": "urn:uuid:6c4ef273-df66-00ab-c021-d05c5a19e0ba",
      "resource": {
        "resourceType": "Practitioner",
        "id": "Inline-Instance-for-jp-eCheckup-BundleSS-4",
        "name": [
          {
            "extension": [
              {
                "url": "http://hl7.org/fhir/StructureDefinition/iso21090-EN-representation",
                "valueCode": "IDE"
              }
            ],
            "family": "東京",
            "given": [
              "太郎"
            ]
          },
          {
            "extension": [
              {
                "url": "http://hl7.org/fhir/StructureDefinition/iso21090-EN-representation",
                "valueCode": "SYL"
              }
            ],
            "family": "トウキョウ",
            "given": [
              "タロウ"
            ]
          }
        ]
      }
    },
    {
      "fullUrl": "urn:uuid:d1fb6063-8f12-4c2c-922a-7b5e467c8407",
      "resource": {
        "resourceType": "Organization",
        "id": "Inline-Instance-for-jp-eCheckup-BundleSS-5",
        "meta": {
          "profile": [
            "https://igs.healthdataworks.net/jp-eCheckup/StructureDefinition-jp-eCheckup-Organization.html"
          ]
        },
        "identifier": [
          {
            "system": "urn:oid:1.2.392.200119.6.102",
            "value": "1311234567"
          }
        ],
        "type": [
          {
            "coding": [
              {
                "system": "http://terminology.hl7.org/CodeSystem/organization-type",
                "code": "prov"
              }
            ]
          }
        ],
        "telecom": [
          {
            "system": "phone",
            "value": "0123-456-7890"
          }
        ],
        "name": "厚生労働省第一病院",
        "address": [
          {
            "text": "東京都千代田区千代田９－９－９",
            "postalCode": "100-0001",
            "country": "JP"
          }
        ]
      }
    },
    {
      "fullUrl": "urn:uuid:3af3232e-1579-d4f6-3578-aa1e799fdcad",
      "resource": {
        "resourceType": "Encounter",
        "id": "Inline-Instance-for-jp-eCheckup-BundleSS-6",
        "meta": {
          "profile": [
            "https://igs.healthdataworks.net/jp-eCheckup/StructureDefinition-jp-eCheckup-Encounter.html"
          ]
        },
        "status": "finished",
        "class": {
          "system": "http://jpfhir.jp/fhir/eCheckup/CodeSystem/encounterCategory",
          "code": "checkup",
          "display": "健診"
        },
        "serviceType": {
          "coding": [
            {
              "system": "urn:oid:1.2.392.200119.6.1002",
              "code": "010",
              "display": "特定健診"
            }
          ]
        },
        "period": {
          "start": "2020-10-01",
          "end": "2020-10-01"
        },
        "serviceProvider": {
          "reference": "urn:uuid:d1fb6063-8f12-4c2c-922a-7b5e467c8407"
        }
      }
    },
    {
      "fullUrl": "urn:uuid:38f45298-ea42-9f15-7fb2-48ed899d3ab6",
      "resource": {
        "resourceType": "Coverage",
        "id": "Inline-Instance-for-jp-eCheckup-BundleSS-7",
        "meta": {
          "profile": [
            "https://igs.healthdataworks.net/jp-eCheckup/StructureDefinition-jp-eCheckup-Coverage.html"
          ]
        },
        "status": "active",
        "type": {
          "coding": [
            {
              "system": "urn:oid:1.2.392.200119.6.208",
              "code": "1"
            }
          ]
        },
        "subscriberId": "20100000123",
        "beneficiary": {
          "reference": "Patient/jp-eCheckup-PatientSS"
        },
        "period": {
          "start": "2020-04-01",
          "end": "2021-03-31"
        },
        "payor": [
          {
            "reference": "urn:uuid:7c9f9f7f-e546-0ac2-6828-a9e0b24e5750"
          }
        ]
      }
    },
    {
      "fullUrl": "urn:uuid:eac6609a-9821-61f7-3eb9-b7db3d9f5cfc",
      "resource": {
        "resourceType": "Coverage",
        "id": "Inline-Instance-for-jp-eCheckup-BundleSS-8",
        "meta": {
          "profile": [
            "https://igs.healthdataworks.net/jp-eCheckup/StructureDefinition-jp-eCheckup-Coverage.html"
          ]
        },
        "status": "active",
        "type": {
          "coding": [
            {
              "system": "urn:oid:1.2.392.200119.6.208",
              "code": "1"
            }
          ]
        },
        "extension": [
          {
            "url": "https://igs.healthdataworks.net/jp-eCheckup/StructureDefinition-jp-eCheckup-InsuredPersonSymbol.html",
            "valueString": "１２３４５"
          },
          {
            "url": "https://igs.healthdataworks.net/jp-eCheckup/StructureDefinition-jp-eCheckup-InsuredPersonNumber.html",
            "valueString": "６７８９０"
          }
        ],
        "beneficiary": {
          "reference": "Patient/jp-eCheckup-PatientSS"
        },
        "dependent": "01",
        "relationship": {
          "coding": [
            {
              "code": "1",
              "system": "urn:oid:1.2.392.100495.20.2.62",
              "display": "本人"
            }
          ]
        },
        "period": {
          "start": "2018-04-01",
          "end": "2022-03-31"
        },
        "payor": [
          {
            "reference": "urn:uuid:7c9f9f7f-e546-0ac2-6828-a9e0b24e5750"
          }
        ]
      }
    },
    {
      "fullUrl": "urn:uuid:7c9f9f7f-e546-0ac2-6828-a9e0b24e5750",
      "resource": {
        "resourceType": "Organization",
        "id": "Inline-Instance-for-jp-eCheckup-BundleSS-9",
        "meta": {
          "profile": [
            "https://igs.healthdataworks.net/jp-eCheckup/StructureDefinition-jp-eCheckup-Organization.html"
          ]
        },
        "identifier": [
          {
            "system": "urn:oid:1.2.392.200119.6.102",
            "value": "06123456"
          }
        ],
        "type": [
          {
            "coding": [
              {
                "system": "http://terminology.hl7.org/CodeSystem/organization-type",
                "code": "prov"
              }
            ]
          }
        ],
        "name": "サンプル健康保険組合"
      }
    },
    {
      "fullUrl": "urn:uuid:b41c8c97-f3ad-450a-1738-5f2b4c40c68a",
      "resource": {
        "resourceType": "Observation",
        "id": "Inline-Instance-for-jp-eCheckup-BundleSS-10",
        "meta": {
          "profile": [
            "https://igs.healthdataworks.net/jp-eCheckup/StructureDefinition-jp-eCheckup-Observation.html"
          ]
        },
        "status": "final",
        "category": [
          {
            "coding": [
              {
                "system": "http://terminology.hl7.org/CodeSystem/observation-category",
                "code": "exam"
              }
            ]
          }
        ],
        "code": {
          "coding": [
            {
              "system": "http://jpfhir.jp/fhir/eCheckup/CodeSystem/JLAC10",
              "code": "9N001000000000001",
              "display": "身長"
            }
          ]
        },
        "subject": {
          "reference": "urn:uuid:4bc68294-1895-d159-655b-1bc7e83f52f3"
        }
      }
    },
    {
      "fullUrl": "urn:uuid:cde1fec2-f8af-a793-7fe0-c2c417c9c000",
      "resource": {
        "resourceType": "Observation",
        "id": "Inline-Instance-for-jp-eCheckup-BundleSS-11",
        "meta": {
          "profile": [
            "https://igs.healthdataworks.net/jp-eCheckup/StructureDefinition-jp-eCheckup-Observation.html"
          ]
        },
        "status": "final",
        "category": [
          {
            "coding": [
              {
                "system": "http://terminology.hl7.org/CodeSystem/observation-category",
                "code": "exam"
              }
            ]
          }
        ],
        "code": {
          "coding": [
            {
              "system": "http://jpfhir.jp/fhir/eCheckup/CodeSystem/JLAC10",
              "code": "9N006000000000001",
              "display": "体重"
            }
          ]
        },
        "subject": {
          "reference": "urn:uuid:4bc68294-1895-d159-655b-1bc7e83f52f3"
        }
      }
    },
    {
      "fullUrl": "urn:uuid:51424f15-c213-00bf-5d31-4770244b4f32",
      "resource": {
        "resourceType": "Observation",
        "id": "Inline-Instance-for-jp-eCheckup-BundleSS-12",
        "meta": {
          "profile": [
            "https://igs.healthdataworks.net/jp-eCheckup/StructureDefinition-jp-eCheckup-Observation.html"
          ]
        },
        "status": "final",
        "category": [
          {
            "coding": [
              {
                "system": "http://terminology.hl7.org/CodeSystem/observation-category",
                "code": "exam"
              }
            ]
          }
        ],
        "code": {
          "coding": [
            {
              "system": "http://jpfhir.jp/fhir/eCheckup/CodeSystem/JLAC10",
              "code": "9N011000000000001",
              "display": "ＢＭＩ"
            }
          ]
        },
        "subject": {
          "reference": "urn:uuid:4bc68294-1895-d159-655b-1bc7e83f52f3"
        }
      }
    },
    {
      "fullUrl": "urn:uuid:628244db-68cf-abb6-bc9d-2d89bbc2b3ea",
      "resource": {
        "resourceType": "Observation",
        "id": "Inline-Instance-for-jp-eCheckup-BundleSS-13",
        "meta": {
          "profile": [
            "https://igs.healthdataworks.net/jp-eCheckup/StructureDefinition-jp-eCheckup-Observation.html"
          ]
        },
        "status": "final",
        "category": [
          {
            "coding": [
              {
                "system": "http://terminology.hl7.org/CodeSystem/observation-category",
                "code": "exam"
              }
            ]
          }
        ],
        "code": {
          "coding": [
            {
              "system": "http://jpfhir.jp/fhir/eCheckup/CodeSystem/JLAC10",
              "code": "9N016160100000001",
              "display": "腹囲"
            }
          ]
        },
        "subject": {
          "reference": "urn:uuid:4bc68294-1895-d159-655b-1bc7e83f52f3"
        },
        "method": {
          "coding": [
            {
              "code": "9N01610000",
              "system": "urn:oid:1.2.392.200119.6.1007",
              "display": "１回目"
            }
          ]
        }
      }
    },
    {
      "fullUrl": "urn:uuid:ff4472f4-9e44-6aa3-bcd6-abb0662e4641",
      "resource": {
        "resourceType": "Observation",
        "id": "Inline-Instance-for-jp-eCheckup-BundleSS-14",
        "meta": {
          "profile": [
            "https://igs.healthdataworks.net/jp-eCheckup/StructureDefinition-jp-eCheckup-Observation.html"
          ]
        },
        "status": "final",
        "category": [
          {
            "coding": [
              {
                "system": "http://terminology.hl7.org/CodeSystem/observation-category",
                "code": "exam"
              }
            ]
          }
        ],
        "code": {
          "coding": [
            {
              "system": "http://jpfhir.jp/fhir/eCheckup/CodeSystem/JLAC10",
              "code": "9N056000000000011",
              "display": "既往歴"
            }
          ]
        },
        "subject": {
          "reference": "urn:uuid:4bc68294-1895-d159-655b-1bc7e83f52f3"
        }
      }
    },
    {
      "fullUrl": "urn:uuid:38cbf2cf-61b7-6738-9d8c-a7b29016c48f",
      "resource": {
        "resourceType": "Observation",
        "id": "Inline-Instance-for-jp-eCheckup-BundleSS-15",
        "meta": {
          "profile": [
            "https://igs.healthdataworks.net/jp-eCheckup/StructureDefinition-jp-eCheckup-Observation.html"
          ]
        },
        "status": "final",
        "category": [
          {
            "coding": [
              {
                "system": "http://terminology.hl7.org/CodeSystem/observation-category",
                "code": "exam"
              }
            ]
          }
        ],
        "code": {
          "coding": [
            {
              "system": "http://jpfhir.jp/fhir/eCheckup/CodeSystem/JLAC10",
              "code": "9N061000000000011",
              "display": "自覚症状"
            }
          ]
        },
        "subject": {
          "reference": "urn:uuid:4bc68294-1895-d159-655b-1bc7e83f52f3"
        }
      }
    },
    {
      "fullUrl": "urn:uuid:01b972fc-5183-8fa4-0954-10a7c5f5a36e",
      "resource": {
        "resourceType": "Observation",
        "id": "Inline-Instance-for-jp-eCheckup-BundleSS-16",
        "meta": {
          "profile": [
            "https://igs.healthdataworks.net/jp-eCheckup/StructureDefinition-jp-eCheckup-Observation.html"
          ]
        },
        "status": "final",
        "category": [
          {
            "coding": [
              {
                "system": "http://terminology.hl7.org/CodeSystem/observation-category",
                "code": "exam"
              }
            ]
          }
        ],
        "code": {
          "coding": [
            {
              "system": "http://jpfhir.jp/fhir/eCheckup/CodeSystem/JLAC10",
              "code": "9N066000000000011",
              "display": "他覚症状"
            }
          ]
        },
        "subject": {
          "reference": "urn:uuid:4bc68294-1895-d159-655b-1bc7e83f52f3"
        }
      }
    },
    {
      "fullUrl": "urn:uuid:785fcd39-8c25-4e6d-53bc-a2f8055fd110",
      "resource": {
        "resourceType": "Observation",
        "id": "Inline-Instance-for-jp-eCheckup-BundleSS-17",
        "meta": {
          "profile": [
            "https://igs.healthdataworks.net/jp-eCheckup/StructureDefinition-jp-eCheckup-Observation.html"
          ]
        },
        "status": "final",
        "category": [
          {
            "coding": [
              {
                "system": "http://terminology.hl7.org/CodeSystem/observation-category"
              }
            ]
          }
        ],
        "code": {
          "coding": [
            {
              "system": "http://jpfhir.jp/fhir/eCheckup/CodeSystem/JLAC10"
            }
          ]
        },
        "subject": {
          "reference": "urn:uuid:4bc68294-1895-d159-655b-1bc7e83f52f3"
        }
      }
    },
    {
      "fullUrl": "urn:uuid:88134c9e-2016-d460-a3c8-417615b0065b",
      "resource": {
        "resourceType": "Observation",
        "id": "Inline-Instance-for-jp-eCheckup-BundleSS-18",
        "meta": {
          "profile": [
            "https://igs.healthdataworks.net/jp-eCheckup/StructureDefinition-jp-eCheckup-Observation.html"
          ]
        },
        "status": "final",
        "category": [
          {
            "coding": [
              {
                "system": "http://terminology.hl7.org/CodeSystem/observation-category",
                "code": "laboratory"
              }
            ]
          }
        ],
        "code": {
          "coding": [
            {
              "system": "http://jpfhir.jp/fhir/eCheckup/CodeSystem/JLAC10",
              "code": "3F015000002327101",
              "display": "中性脂肪"
            }
          ]
        },
        "subject": {
          "reference": "urn:uuid:4bc68294-1895-d159-655b-1bc7e83f52f3"
        },
        "interpretation": [
          {
            "coding": [
              {
                "code": "N",
                "system": "http://terminology.hl7.org/CodeSystem/v3-ObservationInterpretation"
              }
            ]
          }
        ],
        "method": {
          "coding": [
            {
              "code": "3F01510000",
              "system": "urn:oid:1.2.392.200119.6.1007",
              "display": "可視吸光光度法（酵素比色法・グリセロール消去）"
            }
          ]
        },
        "specimen": {
          "reference": "Specimen/jp-eCheckup-SpecimenSS"
        },
        "referenceRange": [
          {
            "low": {
              "value": 50,
              "code": "mg/dL",
              "system": "http://unitsofmeasure.org",
              "unit": "mg/dl"
            },
            "high": {
              "value": 149,
              "code": "mg/dL",
              "system": "http://unitsofmeasure.org",
              "unit": "mg/dl"
            }
          }
        ]
      }
    },
    {
      "fullUrl": "urn:uuid:397dd498-07ed-49ce-3e43-2ee1c7db42aa",
      "resource": {
        "resourceType": "Observation",
        "id": "Inline-Instance-for-jp-eCheckup-BundleSS-19",
        "meta": {
          "profile": [
            "https://igs.healthdataworks.net/jp-eCheckup/StructureDefinition-jp-eCheckup-Observation.html"
          ]
        },
        "status": "final",
        "category": [
          {
            "coding": [
              {
                "system": "http://terminology.hl7.org/CodeSystem/observation-category",
                "code": "laboratory"
              }
            ]
          }
        ],
        "code": {
          "coding": [
            {
              "system": "http://jpfhir.jp/fhir/eCheckup/CodeSystem/JLAC10",
              "code": "3F070000002327101",
              "display": "ＨＤＬコレステロール"
            }
          ]
        },
        "subject": {
          "reference": "urn:uuid:4bc68294-1895-d159-655b-1bc7e83f52f3"
        },
        "interpretation": [
          {
            "coding": [
              {
                "code": "N",
                "system": "http://terminology.hl7.org/CodeSystem/v3-ObservationInterpretation"
              }
            ]
          }
        ],
        "method": {
          "coding": [
            {
              "code": "3F07010000",
              "system": "urn:oid:1.2.392.200119.6.1007",
              "display": "可視吸光光度法（直接法（非沈殿法））"
            }
          ]
        },
        "specimen": {
          "reference": "Specimen/jp-eCheckup-SpecimenSS"
        },
        "referenceRange": [
          {
            "low": {
              "value": 40,
              "code": "mg/dL",
              "system": "http://unitsofmeasure.org",
              "unit": "mg/dl"
            },
            "high": {
              "value": 96,
              "code": "mg/dL",
              "system": "http://unitsofmeasure.org",
              "unit": "mg/dl"
            }
          }
        ]
      }
    },
    {
      "fullUrl": "urn:uuid:454c83e8-a534-84b9-f4d6-7257f5dc15de",
      "resource": {
        "resourceType": "Observation",
        "id": "Inline-Instance-for-jp-eCheckup-BundleSS-20",
        "meta": {
          "profile": [
            "https://igs.healthdataworks.net/jp-eCheckup/StructureDefinition-jp-eCheckup-Observation.html"
          ]
        },
        "status": "final",
        "category": [
          {
            "coding": [
              {
                "system": "http://terminology.hl7.org/CodeSystem/observation-category",
                "code": "laboratory"
              }
            ]
          }
        ],
        "code": {
          "coding": [
            {
              "system": "http://jpfhir.jp/fhir/eCheckup/CodeSystem/JLAC10",
              "code": "3F077000002327101",
              "display": "ＬＤＬコレステロール"
            }
          ]
        },
        "subject": {
          "reference": "urn:uuid:4bc68294-1895-d159-655b-1bc7e83f52f3"
        },
        "interpretation": [
          {
            "coding": [
              {
                "code": "N",
                "system": "http://terminology.hl7.org/CodeSystem/v3-ObservationInterpretation"
              }
            ]
          }
        ],
        "method": {
          "coding": [
            {
              "code": "3F07710000",
              "system": "urn:oid:1.2.392.200119.6.1007",
              "display": "可視吸光光度法（直接法（非沈殿法））"
            }
          ]
        },
        "specimen": {
          "reference": "Specimen/jp-eCheckup-SpecimenSS"
        },
        "referenceRange": [
          {
            "low": {
              "value": 70,
              "code": "mg/dL",
              "system": "http://unitsofmeasure.org",
              "unit": "mg/dl"
            },
            "high": {
              "value": 140,
              "code": "mg/dL",
              "system": "http://unitsofmeasure.org",
              "unit": "mg/dl"
            }
          }
        ]
      }
    },
    {
      "fullUrl": "urn:uuid:e0252472-a245-2340-c3a5-a6c30faf7d11",
      "resource": {
        "resourceType": "Observation",
        "id": "Inline-Instance-for-jp-eCheckup-BundleSS-21",
        "meta": {
          "profile": [
            "https://igs.healthdataworks.net/jp-eCheckup/StructureDefinition-jp-eCheckup-Observation.html"
          ]
        },
        "status": "final",
        "category": [
          {
            "coding": [
              {
                "system": "http://terminology.hl7.org/CodeSystem/observation-category",
                "code": "laboratory"
              }
            ]
          }
        ],
        "code": {
          "coding": [
            {
              "system": "http://jpfhir.jp/fhir/eCheckup/CodeSystem/JLAC10",
              "code": "3B035000002327201",
              "display": "ＧＯＴ（ＡＳＴ）"
            }
          ]
        },
        "subject": {
          "reference": "urn:uuid:4bc68294-1895-d159-655b-1bc7e83f52f3"
        },
        "interpretation": [
          {
            "coding": [
              {
                "code": "N",
                "system": "http://terminology.hl7.org/CodeSystem/v3-ObservationInterpretation"
              }
            ]
          }
        ],
        "method": {
          "coding": [
            {
              "code": "3B03510000",
              "system": "urn:oid:1.2.392.200119.6.1007",
              "display": "紫外吸光光度法（JSCC 標準化対応法）"
            }
          ]
        },
        "specimen": {
          "reference": "Specimen/jp-eCheckup-SpecimenSS"
        },
        "referenceRange": [
          {
            "low": {
              "value": 10,
              "code": "U/L",
              "system": "http://unitsofmeasure.org",
              "unit": "U/l"
            },
            "high": {
              "value": 40,
              "code": "U/L",
              "system": "http://unitsofmeasure.org",
              "unit": "U/l"
            }
          }
        ]
      }
    },
    {
      "fullUrl": "urn:uuid:a2cefc2b-95d6-4108-dac5-bee1f991608a",
      "resource": {
        "resourceType": "Observation",
        "id": "Inline-Instance-for-jp-eCheckup-BundleSS-22",
        "meta": {
          "profile": [
            "https://igs.healthdataworks.net/jp-eCheckup/StructureDefinition-jp-eCheckup-Observation.html"
          ]
        },
        "status": "final",
        "category": [
          {
            "coding": [
              {
                "system": "http://terminology.hl7.org/CodeSystem/observation-category",
                "code": "laboratory"
              }
            ]
          }
        ],
        "code": {
          "coding": [
            {
              "system": "http://jpfhir.jp/fhir/eCheckup/CodeSystem/JLAC10",
              "code": "3B045000002327201",
              "display": "ＧＰＴ（ＡＬＴ）"
            }
          ]
        },
        "subject": {
          "reference": "urn:uuid:4bc68294-1895-d159-655b-1bc7e83f52f3"
        },
        "interpretation": [
          {
            "coding": [
              {
                "code": "N",
                "system": "http://terminology.hl7.org/CodeSystem/v3-ObservationInterpretation"
              }
            ]
          }
        ],
        "method": {
          "coding": [
            {
              "code": "3B04510000",
              "system": "urn:oid:1.2.392.200119.6.1007",
              "display": "紫外吸光光度法（JSCC 標準化対応法）"
            }
          ]
        },
        "specimen": {
          "reference": "Specimen/jp-eCheckup-SpecimenSS"
        },
        "referenceRange": [
          {
            "low": {
              "value": 5,
              "code": "U/L",
              "system": "http://unitsofmeasure.org",
              "unit": "U/l"
            },
            "high": {
              "value": 30,
              "code": "U/L",
              "system": "http://unitsofmeasure.org",
              "unit": "U/l"
            }
          }
        ]
      }
    },
    {
      "fullUrl": "urn:uuid:d0d3fb12-eacc-c4a2-1762-130b4a65ead2",
      "resource": {
        "resourceType": "Observation",
        "id": "Inline-Instance-for-jp-eCheckup-BundleSS-23",
        "meta": {
          "profile": [
            "https://igs.healthdataworks.net/jp-eCheckup/StructureDefinition-jp-eCheckup-Observation.html"
          ]
        },
        "status": "final",
        "category": [
          {
            "coding": [
              {
                "system": "http://terminology.hl7.org/CodeSystem/observation-category",
                "code": "laboratory"
              }
            ]
          }
        ],
        "code": {
          "coding": [
            {
              "system": "http://jpfhir.jp/fhir/eCheckup/CodeSystem/JLAC10",
              "code": "3B090000002327101",
              "display": "γ－ＧＴ（γ－ＧＴＰ）"
            }
          ]
        },
        "subject": {
          "reference": "urn:uuid:4bc68294-1895-d159-655b-1bc7e83f52f3"
        },
        "interpretation": [
          {
            "coding": [
              {
                "code": "N",
                "system": "http://terminology.hl7.org/CodeSystem/v3-ObservationInterpretation"
              }
            ]
          }
        ],
        "method": {
          "coding": [
            {
              "code": "3B09010000",
              "system": "urn:oid:1.2.392.200119.6.1007",
              "display": "可視吸光光度法（JSCC 標準化対応法）"
            }
          ]
        },
        "specimen": {
          "reference": "Specimen/jp-eCheckup-SpecimenSS"
        },
        "referenceRange": [
          {
            "low": {
              "code": "U/L",
              "system": "http://unitsofmeasure.org",
              "unit": "U/l"
            },
            "high": {
              "value": 30,
              "code": "U/L",
              "system": "http://unitsofmeasure.org",
              "unit": "U/l"
            }
          }
        ]
      }
    },
    {
      "fullUrl": "urn:uuid:22479301-4726-e239-09d6-257429835c67",
      "resource": {
        "resourceType": "Observation",
        "id": "Inline-Instance-for-jp-eCheckup-BundleSS-24",
        "meta": {
          "profile": [
            "https://igs.healthdataworks.net/jp-eCheckup/StructureDefinition-jp-eCheckup-Observation.html"
          ]
        },
        "status": "final",
        "category": [
          {
            "coding": [
              {
                "system": "http://terminology.hl7.org/CodeSystem/observation-category",
                "code": "laboratory"
              }
            ]
          }
        ],
        "code": {
          "coding": [
            {
              "system": "http://jpfhir.jp/fhir/eCheckup/CodeSystem/JLAC10",
              "code": "3D046000001906202",
              "display": "ＨｂＡ１ｃ（ＮＧＳＰ）"
            }
          ]
        },
        "subject": {
          "reference": "urn:uuid:4bc68294-1895-d159-655b-1bc7e83f52f3"
        },
        "interpretation": [
          {
            "coding": [
              {
                "code": "H",
                "system": "http://terminology.hl7.org/CodeSystem/v3-ObservationInterpretation"
              }
            ]
          }
        ],
        "method": {
          "coding": [
            {
              "code": "3D04610000",
              "system": "urn:oid:1.2.392.200119.6.1007",
              "display": "免疫学的方法（ラテックス凝集比濁法等）"
            }
          ]
        },
        "specimen": {
          "reference": "Specimen/jp-eCheckup-SpecimenSS"
        },
        "referenceRange": [
          {
            "low": {
              "value": 4.3,
              "code": "%",
              "system": "http://unitsofmeasure.org",
              "unit": "%"
            },
            "high": {
              "value": 5.8,
              "code": "%",
              "system": "http://unitsofmeasure.org",
              "unit": "%"
            }
          }
        ]
      }
    },
    {
      "fullUrl": "urn:uuid:cbb7812a-8f5a-6547-c821-1dc2304d1066",
      "resource": {
        "resourceType": "Observation",
        "id": "Inline-Instance-for-jp-eCheckup-BundleSS-25",
        "meta": {
          "profile": [
            "https://igs.healthdataworks.net/jp-eCheckup/StructureDefinition-jp-eCheckup-Observation.html"
          ]
        },
        "status": "final",
        "category": [
          {
            "coding": [
              {
                "system": "http://terminology.hl7.org/CodeSystem/observation-category",
                "code": "laboratory"
              }
            ]
          }
        ],
        "code": {
          "coding": [
            {
              "system": "http://jpfhir.jp/fhir/eCheckup/CodeSystem/JLAC10",
              "code": "9N141000000000011",
              "display": "採血時間（食後）"
            }
          ]
        },
        "subject": {
          "reference": "urn:uuid:4bc68294-1895-d159-655b-1bc7e83f52f3"
        }
      }
    },
    {
      "fullUrl": "urn:uuid:13e56540-0e37-96f8-c774-31d66fb3efa8",
      "resource": {
        "resourceType": "Observation",
        "id": "Inline-Instance-for-jp-eCheckup-BundleSS-26",
        "meta": {
          "profile": [
            "https://igs.healthdataworks.net/jp-eCheckup/StructureDefinition-jp-eCheckup-Observation.html"
          ]
        },
        "status": "final",
        "category": [
          {
            "coding": [
              {
                "system": "http://terminology.hl7.org/CodeSystem/observation-category",
                "code": "laboratory"
              }
            ]
          }
        ],
        "code": {
          "coding": [
            {
              "system": "http://jpfhir.jp/fhir/eCheckup/CodeSystem/JLAC10",
              "code": "1A020000000191111",
              "display": "尿糖"
            }
          ]
        },
        "subject": {
          "reference": "urn:uuid:4bc68294-1895-d159-655b-1bc7e83f52f3"
        },
        "specimen": {
          "reference": "Specimen/jp-eCheckup-SpecimenSS"
        }
      }
    },
    {
      "fullUrl": "urn:uuid:881e7ffa-4b36-01de-f954-9eff7a7eba24",
      "resource": {
        "resourceType": "Observation",
        "id": "Inline-Instance-for-jp-eCheckup-BundleSS-27",
        "meta": {
          "profile": [
            "https://igs.healthdataworks.net/jp-eCheckup/StructureDefinition-jp-eCheckup-Observation.html"
          ]
        },
        "status": "final",
        "category": [
          {
            "coding": [
              {
                "system": "http://terminology.hl7.org/CodeSystem/observation-category",
                "code": "laboratory"
              }
            ]
          }
        ],
        "code": {
          "coding": [
            {
              "system": "http://jpfhir.jp/fhir/eCheckup/CodeSystem/JLAC10",
              "code": "1A010000000191111",
              "display": "尿蛋白"
            }
          ]
        },
        "subject": {
          "reference": "urn:uuid:4bc68294-1895-d159-655b-1bc7e83f52f3"
        },
        "specimen": {
          "reference": "Specimen/jp-eCheckup-SpecimenSS"
        }
      }
    },
    {
      "fullUrl": "urn:uuid:55cb9c64-af3d-9763-a3f5-8d14954c36cc",
      "resource": {
        "resourceType": "Observation",
        "id": "Inline-Instance-for-jp-eCheckup-BundleSS-28",
        "meta": {
          "profile": [
            "https://igs.healthdataworks.net/jp-eCheckup/StructureDefinition-jp-eCheckup-Observation.html"
          ]
        },
        "status": "final",
        "category": [
          {
            "coding": [
              {
                "system": "http://terminology.hl7.org/CodeSystem/observation-category",
                "code": "survey"
              }
            ]
          }
        ],
        "code": {
          "coding": [
            {
              "system": "http://jpfhir.jp/fhir/eCheckup/CodeSystem/JLAC10",
              "code": "9N501000000000011",
              "display": "メタボリックシンドローム判定"
            }
          ]
        },
        "subject": {
          "reference": "urn:uuid:4bc68294-1895-d159-655b-1bc7e83f52f3"
        }
      }
    },
    {
      "fullUrl": "urn:uuid:42b66f41-aafe-1452-1f3d-8fc25dfa1ce3",
      "resource": {
        "resourceType": "Observation",
        "id": "Inline-Instance-for-jp-eCheckup-BundleSS-29",
        "meta": {
          "profile": [
            "https://igs.healthdataworks.net/jp-eCheckup/StructureDefinition-jp-eCheckup-Observation.html"
          ]
        },
        "status": "final",
        "category": [
          {
            "coding": [
              {
                "system": "http://terminology.hl7.org/CodeSystem/observation-category",
                "code": "survey"
              }
            ]
          }
        ],
        "code": {
          "coding": [
            {
              "system": "http://jpfhir.jp/fhir/eCheckup/CodeSystem/JLAC10",
              "code": "9N506000000000011",
              "display": "保健指導レベル"
            }
          ]
        },
        "subject": {
          "reference": "urn:uuid:4bc68294-1895-d159-655b-1bc7e83f52f3"
        }
      }
    },
    {
      "fullUrl": "urn:uuid:54eabf03-1de5-d080-aed6-6b6a2e4da269",
      "resource": {
        "resourceType": "Observation",
        "id": "Inline-Instance-for-jp-eCheckup-BundleSS-30",
        "meta": {
          "profile": [
            "https://igs.healthdataworks.net/jp-eCheckup/StructureDefinition-jp-eCheckup-Observation.html"
          ]
        },
        "status": "final",
        "category": [
          {
            "coding": [
              {
                "system": "http://terminology.hl7.org/CodeSystem/observation-category",
                "code": "exam"
              }
            ]
          }
        ],
        "code": {
          "coding": [
            {
              "system": "http://jpfhir.jp/fhir/eCheckup/CodeSystem/JLAC10",
              "code": "9N511000000000049",
              "display": "医師の診断（判定）"
            }
          ]
        },
        "subject": {
          "reference": "urn:uuid:4bc68294-1895-d159-655b-1bc7e83f52f3"
        },
        "performer": [
          {
            "reference": "urn:uuid:6c4ef273-df66-00ab-c021-d05c5a19e0ba"
          }
        ],
        "valueString": "肝機能がわずかに異常ですが支障はないと思われます。"
      }
    },
    {
      "fullUrl": "urn:uuid:71fcdecc-1331-9067-f5b2-24d6ba5eecda",
      "resource": {
        "resourceType": "Observation",
        "id": "Inline-Instance-for-jp-eCheckup-BundleSS-31",
        "meta": {
          "profile": [
            "https://igs.healthdataworks.net/jp-eCheckup/StructureDefinition-jp-eCheckup-Observation.html"
          ]
        },
        "status": "final",
        "category": [
          {
            "coding": [
              {
                "system": "http://terminology.hl7.org/CodeSystem/observation-category",
                "code": "social-history"
              }
            ]
          }
        ],
        "code": {
          "coding": [
            {
              "system": "http://jpfhir.jp/fhir/eCheckup/CodeSystem/JLAC10",
              "code": "9N701000000000011",
              "display": "服薬１（血圧）"
            }
          ]
        },
        "subject": {
          "reference": "urn:uuid:4bc68294-1895-d159-655b-1bc7e83f52f3"
        }
      }
    },
    {
      "fullUrl": "urn:uuid:e6bd5094-2641-966f-92cf-04aced8624ac",
      "resource": {
        "resourceType": "Observation",
        "id": "Inline-Instance-for-jp-eCheckup-BundleSS-32",
        "meta": {
          "profile": [
            "https://igs.healthdataworks.net/jp-eCheckup/StructureDefinition-jp-eCheckup-Observation.html"
          ]
        },
        "status": "final",
        "category": [
          {
            "coding": [
              {
                "system": "http://terminology.hl7.org/CodeSystem/observation-category",
                "code": "social-history"
              }
            ]
          }
        ],
        "code": {
          "coding": [
            {
              "system": "http://jpfhir.jp/fhir/eCheckup/CodeSystem/JLAC10",
              "code": "9N706000000000011",
              "display": "服薬２（血糖）"
            }
          ]
        },
        "subject": {
          "reference": "urn:uuid:4bc68294-1895-d159-655b-1bc7e83f52f3"
        }
      }
    },
    {
      "fullUrl": "urn:uuid:84dbe428-621d-90a2-6d8a-93bf7877a623",
      "resource": {
        "resourceType": "Observation",
        "id": "Inline-Instance-for-jp-eCheckup-BundleSS-33",
        "meta": {
          "profile": [
            "https://igs.healthdataworks.net/jp-eCheckup/StructureDefinition-jp-eCheckup-Observation.html"
          ]
        },
        "status": "final",
        "category": [
          {
            "coding": [
              {
                "system": "http://terminology.hl7.org/CodeSystem/observation-category",
                "code": "social-history"
              }
            ]
          }
        ],
        "code": {
          "coding": [
            {
              "system": "http://jpfhir.jp/fhir/eCheckup/CodeSystem/JLAC10",
              "code": "9N711000000000011",
              "display": "服薬３（脂質）"
            }
          ]
        },
        "subject": {
          "reference": "urn:uuid:4bc68294-1895-d159-655b-1bc7e83f52f3"
        }
      }
    },
    {
      "fullUrl": "urn:uuid:394254aa-ec8b-9460-b807-3f14af30f980",
      "resource": {
        "resourceType": "Observation",
        "id": "Inline-Instance-for-jp-eCheckup-BundleSS-34",
        "meta": {
          "profile": [
            "https://igs.healthdataworks.net/jp-eCheckup/StructureDefinition-jp-eCheckup-Observation.html"
          ]
        },
        "status": "final",
        "category": [
          {
            "coding": [
              {
                "system": "http://terminology.hl7.org/CodeSystem/observation-category",
                "code": "social-history"
              }
            ]
          }
        ],
        "code": {
          "coding": [
            {
              "system": "http://jpfhir.jp/fhir/eCheckup/CodeSystem/JLAC10",
              "code": "9N736000000000011",
              "display": "喫煙"
            }
          ]
        },
        "subject": {
          "reference": "urn:uuid:4bc68294-1895-d159-655b-1bc7e83f52f3"
        }
      }
    },
    {
      "fullUrl": "urn:uuid:771633a6-53fe-93b7-a554-55eba705323a",
      "resource": {
        "resourceType": "Observation",
        "id": "Inline-Instance-for-jp-eCheckup-BundleSS-35",
        "meta": {
          "profile": [
            "https://igs.healthdataworks.net/jp-eCheckup/StructureDefinition-jp-eCheckup-Observation.html"
          ]
        },
        "status": "final",
        "category": [
          {
            "coding": [
              {
                "system": "http://terminology.hl7.org/CodeSystem/observation-category",
                "code": "social-history"
              }
            ]
          }
        ],
        "code": {
          "coding": [
            {
              "system": "http://jpfhir.jp/fhir/eCheckup/CodeSystem/JLAC10",
              "code": "9N716000000000011",
              "display": "既往歴１（脳血管）"
            }
          ]
        },
        "subject": {
          "reference": "urn:uuid:4bc68294-1895-d159-655b-1bc7e83f52f3"
        }
      }
    },
    {
      "fullUrl": "urn:uuid:7aba35bb-c544-a4f5-1708-80232eb4ad20",
      "resource": {
        "resourceType": "Observation",
        "id": "Inline-Instance-for-jp-eCheckup-BundleSS-36",
        "meta": {
          "profile": [
            "https://igs.healthdataworks.net/jp-eCheckup/StructureDefinition-jp-eCheckup-Observation.html"
          ]
        },
        "status": "final",
        "category": [
          {
            "coding": [
              {
                "system": "http://terminology.hl7.org/CodeSystem/observation-category",
                "code": "social-history"
              }
            ]
          }
        ],
        "code": {
          "coding": [
            {
              "system": "http://jpfhir.jp/fhir/eCheckup/CodeSystem/JLAC10",
              "code": "9N721000000000011",
              "display": "既往歴２（心血管）"
            }
          ]
        },
        "subject": {
          "reference": "urn:uuid:4bc68294-1895-d159-655b-1bc7e83f52f3"
        }
      }
    },
    {
      "fullUrl": "urn:uuid:3f789a09-3ed8-7b10-0746-3468712a31e0",
      "resource": {
        "resourceType": "Observation",
        "id": "Inline-Instance-for-jp-eCheckup-BundleSS-37",
        "meta": {
          "profile": [
            "https://igs.healthdataworks.net/jp-eCheckup/StructureDefinition-jp-eCheckup-Observation.html"
          ]
        },
        "status": "final",
        "category": [
          {
            "coding": [
              {
                "system": "http://terminology.hl7.org/CodeSystem/observation-category",
                "code": "social-history"
              }
            ]
          }
        ],
        "code": {
          "coding": [
            {
              "system": "http://jpfhir.jp/fhir/eCheckup/CodeSystem/JLAC10",
              "code": "9N726000000000011",
              "display": "既往歴３（腎不全・人工透析）"
            }
          ]
        },
        "subject": {
          "reference": "urn:uuid:4bc68294-1895-d159-655b-1bc7e83f52f3"
        }
      }
    },
    {
      "fullUrl": "urn:uuid:60c85205-13fb-407f-c318-ba6d77f6cbf5",
      "resource": {
        "resourceType": "Observation",
        "id": "Inline-Instance-for-jp-eCheckup-BundleSS-38",
        "meta": {
          "profile": [
            "https://igs.healthdataworks.net/jp-eCheckup/StructureDefinition-jp-eCheckup-Observation.html"
          ]
        },
        "status": "final",
        "category": [
          {
            "coding": [
              {
                "system": "http://terminology.hl7.org/CodeSystem/observation-category",
                "code": "social-history"
              }
            ]
          }
        ],
        "code": {
          "coding": [
            {
              "system": "http://jpfhir.jp/fhir/eCheckup/CodeSystem/JLAC10",
              "code": "9N731000000000011",
              "display": "貧血"
            }
          ]
        },
        "subject": {
          "reference": "urn:uuid:4bc68294-1895-d159-655b-1bc7e83f52f3"
        }
      }
    },
    {
      "fullUrl": "urn:uuid:cf70c7f5-61e0-08b2-b0bd-6c8de3f17d1e",
      "resource": {
        "resourceType": "Observation",
        "id": "Inline-Instance-for-jp-eCheckup-BundleSS-39",
        "meta": {
          "profile": [
            "https://igs.healthdataworks.net/jp-eCheckup/StructureDefinition-jp-eCheckup-Observation.html"
          ]
        },
        "status": "final",
        "category": [
          {
            "coding": [
              {
                "system": "http://terminology.hl7.org/CodeSystem/observation-category",
                "code": "social-history"
              }
            ]
          }
        ],
        "code": {
          "coding": [
            {
              "system": "http://jpfhir.jp/fhir/eCheckup/CodeSystem/JLAC10",
              "code": "9N741000000000011",
              "display": "２０歳からの体重変化"
            }
          ]
        },
        "subject": {
          "reference": "urn:uuid:4bc68294-1895-d159-655b-1bc7e83f52f3"
        }
      }
    },
    {
      "fullUrl": "urn:uuid:03f32584-e817-3800-1a1b-0875aca196a6",
      "resource": {
        "resourceType": "Observation",
        "id": "Inline-Instance-for-jp-eCheckup-BundleSS-40",
        "meta": {
          "profile": [
            "https://igs.healthdataworks.net/jp-eCheckup/StructureDefinition-jp-eCheckup-Observation.html"
          ]
        },
        "status": "final",
        "category": [
          {
            "coding": [
              {
                "system": "http://terminology.hl7.org/CodeSystem/observation-category",
                "code": "social-history"
              }
            ]
          }
        ],
        "code": {
          "coding": [
            {
              "system": "http://jpfhir.jp/fhir/eCheckup/CodeSystem/JLAC10",
              "code": "9N746000000000011",
              "display": "３０分以上の運動習慣"
            }
          ]
        },
        "subject": {
          "reference": "urn:uuid:4bc68294-1895-d159-655b-1bc7e83f52f3"
        }
      }
    },
    {
      "fullUrl": "urn:uuid:653fb95b-8523-a180-7a42-4af7ecab60b8",
      "resource": {
        "resourceType": "Observation",
        "id": "Inline-Instance-for-jp-eCheckup-BundleSS-41",
        "meta": {
          "profile": [
            "https://igs.healthdataworks.net/jp-eCheckup/StructureDefinition-jp-eCheckup-Observation.html"
          ]
        },
        "status": "final",
        "category": [
          {
            "coding": [
              {
                "system": "http://terminology.hl7.org/CodeSystem/observation-category",
                "code": "social-history"
              }
            ]
          }
        ],
        "code": {
          "coding": [
            {
              "system": "http://jpfhir.jp/fhir/eCheckup/CodeSystem/JLAC10",
              "code": "9N751000000000011",
              "display": "歩行又は身体活動"
            }
          ]
        },
        "subject": {
          "reference": "urn:uuid:4bc68294-1895-d159-655b-1bc7e83f52f3"
        }
      }
    },
    {
      "fullUrl": "urn:uuid:55f1f4c4-ba3a-908f-8bff-9055f97365a2",
      "resource": {
        "resourceType": "Observation",
        "id": "Inline-Instance-for-jp-eCheckup-BundleSS-42",
        "meta": {
          "profile": [
            "https://igs.healthdataworks.net/jp-eCheckup/StructureDefinition-jp-eCheckup-Observation.html"
          ]
        },
        "status": "final",
        "category": [
          {
            "coding": [
              {
                "system": "http://terminology.hl7.org/CodeSystem/observation-category",
                "code": "social-history"
              }
            ]
          }
        ],
        "code": {
          "coding": [
            {
              "system": "http://jpfhir.jp/fhir/eCheckup/CodeSystem/JLAC10",
              "code": "9N756000000000011",
              "display": "歩行速度"
            }
          ]
        },
        "subject": {
          "reference": "urn:uuid:4bc68294-1895-d159-655b-1bc7e83f52f3"
        }
      }
    },
    {
      "fullUrl": "urn:uuid:90801144-7e54-4746-e61d-59846d98099a",
      "resource": {
        "resourceType": "Observation",
        "id": "Inline-Instance-for-jp-eCheckup-BundleSS-43",
        "meta": {
          "profile": [
            "https://igs.healthdataworks.net/jp-eCheckup/StructureDefinition-jp-eCheckup-Observation.html"
          ]
        },
        "status": "final",
        "category": [
          {
            "coding": [
              {
                "system": "http://terminology.hl7.org/CodeSystem/observation-category",
                "code": "social-history"
              }
            ]
          }
        ],
        "code": {
          "coding": [
            {
              "system": "http://jpfhir.jp/fhir/eCheckup/CodeSystem/JLAC10",
              "code": "9N872000000000011",
              "display": "咀嚼"
            }
          ]
        },
        "subject": {
          "reference": "urn:uuid:4bc68294-1895-d159-655b-1bc7e83f52f3"
        }
      }
    },
    {
      "fullUrl": "urn:uuid:0e01b4a8-0c09-1b58-2806-e92de3772100",
      "resource": {
        "resourceType": "Observation",
        "id": "Inline-Instance-for-jp-eCheckup-BundleSS-44",
        "meta": {
          "profile": [
            "https://igs.healthdataworks.net/jp-eCheckup/StructureDefinition-jp-eCheckup-Observation.html"
          ]
        },
        "status": "final",
        "category": [
          {
            "coding": [
              {
                "system": "http://terminology.hl7.org/CodeSystem/observation-category",
                "code": "social-history"
              }
            ]
          }
        ],
        "code": {
          "coding": [
            {
              "system": "http://jpfhir.jp/fhir/eCheckup/CodeSystem/JLAC10",
              "code": "9N766000000000011",
              "display": "食べ方1（早食い等）"
            }
          ]
        },
        "subject": {
          "reference": "urn:uuid:4bc68294-1895-d159-655b-1bc7e83f52f3"
        }
      }
    },
    {
      "fullUrl": "urn:uuid:fa85159b-5e47-2328-0818-19157328ab2d",
      "resource": {
        "resourceType": "Observation",
        "id": "Inline-Instance-for-jp-eCheckup-BundleSS-45",
        "meta": {
          "profile": [
            "https://igs.healthdataworks.net/jp-eCheckup/StructureDefinition-jp-eCheckup-Observation.html"
          ]
        },
        "status": "final",
        "category": [
          {
            "coding": [
              {
                "system": "http://terminology.hl7.org/CodeSystem/observation-category",
                "code": "social-history"
              }
            ]
          }
        ],
        "code": {
          "coding": [
            {
              "system": "http://jpfhir.jp/fhir/eCheckup/CodeSystem/JLAC10",
              "code": "9N771000000000011",
              "display": "食べ方２（就寝前）"
            }
          ]
        },
        "subject": {
          "reference": "Patient/jp-eCheckup-PatientSS"
        }
      }
    },
    {
      "fullUrl": "urn:uuid:b2dd1122-47d5-1e4e-7032-522c3409f196",
      "resource": {
        "resourceType": "Observation",
        "id": "Inline-Instance-for-jp-eCheckup-BundleSS-46",
        "meta": {
          "profile": [
            "https://igs.healthdataworks.net/jp-eCheckup/StructureDefinition-jp-eCheckup-Observation.html"
          ]
        },
        "status": "final",
        "category": [
          {
            "coding": [
              {
                "system": "http://terminology.hl7.org/CodeSystem/observation-category",
                "code": "social-history"
              }
            ]
          }
        ],
        "code": {
          "coding": [
            {
              "system": "http://jpfhir.jp/fhir/eCheckup/CodeSystem/JLAC10",
              "code": "9N782000000000011",
              "display": "食べ方３（間食）"
            }
          ]
        },
        "subject": {
          "reference": "urn:uuid:4bc68294-1895-d159-655b-1bc7e83f52f3"
        }
      }
    },
    {
      "fullUrl": "urn:uuid:d23cab05-9bd9-e67d-0b24-067e094862f5",
      "resource": {
        "resourceType": "Observation",
        "id": "Inline-Instance-for-jp-eCheckup-BundleSS-47",
        "meta": {
          "profile": [
            "https://igs.healthdataworks.net/jp-eCheckup/StructureDefinition-jp-eCheckup-Observation.html"
          ]
        },
        "status": "final",
        "category": [
          {
            "coding": [
              {
                "system": "http://terminology.hl7.org/CodeSystem/observation-category",
                "code": "social-history"
              }
            ]
          }
        ],
        "code": {
          "coding": [
            {
              "system": "http://jpfhir.jp/fhir/eCheckup/CodeSystem/JLAC10",
              "code": "9N781000000000011",
              "display": "食習慣"
            }
          ]
        },
        "subject": {
          "reference": "urn:uuid:4bc68294-1895-d159-655b-1bc7e83f52f3"
        }
      }
    },
    {
      "fullUrl": "urn:uuid:029b7c8b-a683-6189-4b28-69eac44785df",
      "resource": {
        "resourceType": "Observation",
        "id": "Inline-Instance-for-jp-eCheckup-BundleSS-48",
        "meta": {
          "profile": [
            "https://igs.healthdataworks.net/jp-eCheckup/StructureDefinition-jp-eCheckup-Observation.html"
          ]
        },
        "status": "final",
        "category": [
          {
            "coding": [
              {
                "system": "http://terminology.hl7.org/CodeSystem/observation-category",
                "code": "social-history"
              }
            ]
          }
        ],
        "code": {
          "coding": [
            {
              "system": "http://jpfhir.jp/fhir/eCheckup/CodeSystem/JLAC10",
              "code": "9N786000000000011",
              "display": "飲酒"
            }
          ]
        },
        "subject": {
          "reference": "urn:uuid:4bc68294-1895-d159-655b-1bc7e83f52f3"
        }
      }
    },
    {
      "fullUrl": "urn:uuid:ddd1124f-f22d-73d9-0205-f23d19ff9d5b",
      "resource": {
        "resourceType": "Observation",
        "id": "Inline-Instance-for-jp-eCheckup-BundleSS-49",
        "meta": {
          "profile": [
            "https://igs.healthdataworks.net/jp-eCheckup/StructureDefinition-jp-eCheckup-Observation.html"
          ]
        },
        "status": "final",
        "category": [
          {
            "coding": [
              {
                "system": "http://terminology.hl7.org/CodeSystem/observation-category",
                "code": "social-history"
              }
            ]
          }
        ],
        "code": {
          "coding": [
            {
              "system": "http://jpfhir.jp/fhir/eCheckup/CodeSystem/JLAC10",
              "code": "9N791000000000011",
              "display": "飲酒量"
            }
          ]
        },
        "subject": {
          "reference": "urn:uuid:4bc68294-1895-d159-655b-1bc7e83f52f3"
        }
      }
    },
    {
      "fullUrl": "urn:uuid:58da6db5-8b94-885e-d69d-2c1d61bcf5fc",
      "resource": {
        "resourceType": "Observation",
        "id": "Inline-Instance-for-jp-eCheckup-BundleSS-50",
        "meta": {
          "profile": [
            "https://igs.healthdataworks.net/jp-eCheckup/StructureDefinition-jp-eCheckup-Observation.html"
          ]
        },
        "status": "final",
        "category": [
          {
            "coding": [
              {
                "system": "http://terminology.hl7.org/CodeSystem/observation-category",
                "code": "social-history"
              }
            ]
          }
        ],
        "code": {
          "coding": [
            {
              "system": "http://jpfhir.jp/fhir/eCheckup/CodeSystem/JLAC10",
              "code": "9N796000000000011",
              "display": "睡眠"
            }
          ]
        },
        "subject": {
          "reference": "urn:uuid:4bc68294-1895-d159-655b-1bc7e83f52f3"
        }
      }
    },
    {
      "fullUrl": "urn:uuid:c129aa0a-0324-f741-b3b6-2ede35eef2de",
      "resource": {
        "resourceType": "Observation",
        "id": "Inline-Instance-for-jp-eCheckup-BundleSS-51",
        "meta": {
          "profile": [
            "https://igs.healthdataworks.net/jp-eCheckup/StructureDefinition-jp-eCheckup-Observation.html"
          ]
        },
        "status": "final",
        "category": [
          {
            "coding": [
              {
                "system": "http://terminology.hl7.org/CodeSystem/observation-category",
                "code": "social-history"
              }
            ]
          }
        ],
        "code": {
          "coding": [
            {
              "system": "http://jpfhir.jp/fhir/eCheckup/CodeSystem/JLAC10",
              "code": "9N801000000000011",
              "display": "生活習慣の改善"
            }
          ]
        },
        "subject": {
          "reference": "urn:uuid:4bc68294-1895-d159-655b-1bc7e83f52f3"
        }
      }
    },
    {
      "fullUrl": "urn:uuid:4e41601f-3e85-2b45-51a9-8e939a43c9f7",
      "resource": {
        "resourceType": "Observation",
        "id": "Inline-Instance-for-jp-eCheckup-BundleSS-52",
        "meta": {
          "profile": [
            "https://igs.healthdataworks.net/jp-eCheckup/StructureDefinition-jp-eCheckup-Observation.html"
          ]
        },
        "status": "final",
        "category": [
          {
            "coding": [
              {
                "system": "http://terminology.hl7.org/CodeSystem/observation-category",
                "code": "social-history"
              }
            ]
          }
        ],
        "code": {
          "coding": [
            {
              "system": "http://jpfhir.jp/fhir/eCheckup/CodeSystem/JLAC10",
              "code": "9N806000000000011",
              "display": "保健指導の希望"
            }
          ]
        },
        "subject": {
          "reference": "urn:uuid:4bc68294-1895-d159-655b-1bc7e83f52f3"
        }
      }
    },
    {
      "fullUrl": "urn:uuid:08f49bc3-1cd1-b942-1723-4aa950b4c77d",
      "resource": {
        "resourceType": "Specimen",
        "id": "Inline-Instance-for-jp-eCheckup-BundleSS-53",
        "meta": {
          "profile": [
            "https://igs.healthdataworks.net/jp-eCheckup/StructureDefinition-jp-eCheckup-Specimen.html"
          ]
        },
        "type": {
          "coding": [
            {
              "code": "019",
              "system": "http://jpfhir.jp/eCheckup/CodeSystem/JLAC10-Specimen",
              "display": "全血（添加物入り）"
            }
          ]
        }
      }
    },
    {
      "fullUrl": "urn:uuid:d669559e-2e5a-c271-c1ff-cde1228d4077",
      "resource": {
        "resourceType": "Specimen",
        "id": "Inline-Instance-for-jp-eCheckup-BundleSS-54",
        "meta": {
          "profile": [
            "https://igs.healthdataworks.net/jp-eCheckup/StructureDefinition-jp-eCheckup-Specimen.html"
          ]
        },
        "type": {
          "coding": [
            {
              "code": "023",
              "system": "http://jpfhir.jp/eCheckup/CodeSystem/JLAC10-Specimen",
              "display": "血清"
            }
          ]
        }
      }
    },
    {
      "fullUrl": "urn:uuid:3a33a26e-3532-06a6-90a9-e0566342cd49",
      "resource": {
        "resourceType": "Specimen",
        "id": "Inline-Instance-for-jp-eCheckup-BundleSS-55",
        "meta": {
          "profile": [
            "https://igs.healthdataworks.net/jp-eCheckup/StructureDefinition-jp-eCheckup-Specimen.html"
          ]
        },
        "type": {
          "coding": [
            {
              "code": "001",
              "system": "http://jpfhir.jp/eCheckup/CodeSystem/JLAC10-Specimen",
              "display": "尿（含むその他）"
            }
          ]
        }
      }
    }
  ]
}
